LabVIEW Measurement,
Writer_Version,2
Reader_Version,2
Separator,Comma
Decimal_Separator,.
Multi_Headings,Yes
X_Columns,One
Time_Pref,Relative
Operator,Matthew Whetham
Date,2024/11/04
Time,16:39:31.3374118804931640625
***End_of_Header***,
,
Channels,1,
Samples,1000,
Date,2024/11/04,
Time,16:39:31.3374118804931640625,
X_Dimension,Time,
X0,0.0000000000000000E+0,
Delta_X,1.000000,
***End_of_Header***,,
X_Value,Untitled,Comment
0.000000,0.001109
1.000000,0.000153
2.000000,-0.001122
3.000000,-0.000166
4.000000,-0.000166
5.000000,0.000790
6.000000,0.000153
7.000000,0.000472
8.000000,-0.000166
9.000000,-0.001122
10.000000,0.001746
11.000000,-0.001122
12.000000,-0.001122
13.000000,-0.000166
14.000000,0.000153
15.000000,-0.000166
16.000000,0.000153
17.000000,-0.000166
18.000000,-0.001122
19.000000,0.000153
20.000000,0.003339
21.000000,-0.000166
22.000000,-0.000484
23.000000,0.000153
24.000000,0.000153
25.000000,-0.001122
26.000000,-0.000484
27.000000,0.001109
28.000000,-0.001122
29.000000,-0.001440
30.000000,0.000153
31.000000,-0.001122
32.000000,-0.001122
33.000000,-0.000803
34.000000,-0.000803
35.000000,-0.000803
36.000000,0.000153
37.000000,-0.000484
38.000000,-0.000803
39.000000,-0.000484
40.000000,-0.000166
41.000000,-0.001122
42.000000,-0.001122
43.000000,-0.000484
44.000000,-0.000803
45.000000,-0.000484
46.000000,0.000153
47.000000,0.000153
48.000000,-0.000484
49.000000,-0.000166
50.000000,-0.000166
51.000000,-0.001122
52.000000,0.000153
53.000000,-0.000803
54.000000,-0.000166
55.000000,0.001746
56.000000,-0.000166
57.000000,-0.000166
58.000000,-0.001122
59.000000,0.002065
60.000000,-0.001122
61.000000,0.001428
62.000000,-0.000803
63.000000,0.000472
64.000000,0.000153
65.000000,0.000153
66.000000,0.000153
67.000000,-0.000166
68.000000,-0.000166
69.000000,-0.000166
70.000000,0.001746
71.000000,0.001109
72.000000,-0.000484
73.000000,0.000472
74.000000,-0.000484
75.000000,-0.000166
76.000000,-0.000484
77.000000,-0.000484
78.000000,0.001109
79.000000,0.005889
80.000000,-0.000803
81.000000,0.001746
82.000000,0.000472
83.000000,-0.001122
84.000000,0.000153
85.000000,-0.000803
86.000000,-0.000484
87.000000,-0.001440
88.000000,0.000153
89.000000,-0.001122
90.000000,-0.000803
91.000000,-0.000803
92.000000,-0.001122
93.000000,-0.001122
94.000000,-0.000803
95.000000,0.000472
96.000000,-0.000166
97.000000,-0.001122
98.000000,0.000153
99.000000,0.000153
100.000000,0.000153
101.000000,-0.000803
102.000000,0.000153
103.000000,-0.000803
104.000000,0.000472
105.000000,-0.000803
106.000000,-0.000484
107.000000,-0.000166
108.000000,0.000472
109.000000,-0.000484
110.000000,-0.000484
111.000000,-0.001440
112.000000,-0.001122
113.000000,-0.000166
114.000000,-0.000484
115.000000,0.001746
116.000000,-0.000166
117.000000,-0.000484
118.000000,-0.000803
119.000000,0.000790
120.000000,-0.000166
121.000000,-0.001122
122.000000,0.000153
123.000000,0.000153
124.000000,-0.000484
125.000000,-0.000803
126.000000,0.000153
127.000000,-0.000484
128.000000,-0.000803
129.000000,-0.001122
130.000000,0.000153
131.000000,-0.000484
132.000000,-0.002396
133.000000,0.000153
134.000000,0.000472
135.000000,0.000790
136.000000,-0.001122
137.000000,0.000472
138.000000,0.000790
139.000000,0.000472
140.000000,-0.000484
141.000000,-0.000166
142.000000,-0.001440
143.000000,-0.000803
144.000000,-0.001759
145.000000,-0.001440
146.000000,-0.000484
147.000000,-0.000484
148.000000,-0.000166
149.000000,-0.000166
150.000000,-0.000803
151.000000,-0.000166
152.000000,-0.000803
153.000000,0.000472
154.000000,-0.001122
155.000000,0.000472
156.000000,0.000153
157.000000,0.000153
158.000000,0.000153
159.000000,-0.001440
160.000000,0.000153
161.000000,0.000472
162.000000,-0.000803
163.000000,0.000153
164.000000,-0.001440
165.000000,-0.000803
166.000000,-0.000166
167.000000,-0.001122
168.000000,0.000472
169.000000,0.001109
170.000000,0.000153
171.000000,-0.000803
172.000000,0.000153
173.000000,-0.000484
174.000000,-0.000166
175.000000,0.000153
176.000000,-0.001759
177.000000,0.003658
178.000000,-0.001122
179.000000,0.000153
180.000000,0.000153
181.000000,-0.000803
182.000000,-0.000803
183.000000,-0.000166
184.000000,0.000790
185.000000,-0.000166
186.000000,0.000472
187.000000,-0.001122
188.000000,0.000790
189.000000,-0.000803
190.000000,0.000153
191.000000,-0.000166
192.000000,-0.000803
193.000000,-0.000166
194.000000,-0.000803
195.000000,-0.000803
196.000000,-0.000484
197.000000,-0.001122
198.000000,-0.000166
199.000000,-0.000484
200.000000,-0.000803
201.000000,-0.000803
202.000000,0.000472
203.000000,0.000472
204.000000,-0.000484
205.000000,0.000472
206.000000,0.000153
207.000000,0.000153
208.000000,-0.000803
209.000000,0.000790
210.000000,-0.000803
211.000000,0.000153
212.000000,0.000790
213.000000,-0.001122
214.000000,-0.000803
215.000000,-0.001122
216.000000,0.001428
217.000000,-0.001122
218.000000,0.000153
219.000000,0.000153
220.000000,0.001746
221.000000,-0.000803
222.000000,-0.000166
223.000000,0.000153
224.000000,0.000153
225.000000,-0.000166
226.000000,0.000472
227.000000,-0.001122
228.000000,0.000153
229.000000,-0.000166
230.000000,-0.000484
231.000000,-0.000803
232.000000,-0.000166
233.000000,-0.000484
234.000000,0.000153
235.000000,-0.002396
236.000000,-0.000484
237.000000,-0.001440
238.000000,0.001428
239.000000,-0.000166
240.000000,0.000790
241.000000,-0.000166
242.000000,0.001109
243.000000,-0.000484
244.000000,-0.000166
245.000000,-0.000803
246.000000,0.000153
247.000000,-0.001122
248.000000,-0.000166
249.000000,0.000153
250.000000,-0.001122
251.000000,-0.000166
252.000000,0.000472
253.000000,-0.001440
254.000000,-0.001122
255.000000,-0.000484
256.000000,-0.000166
257.000000,-0.000166
258.000000,-0.000803
259.000000,-0.001122
260.000000,-0.000803
261.000000,-0.001122
262.000000,-0.000166
263.000000,-0.000484
264.000000,-0.001122
265.000000,-0.000484
266.000000,-0.000803
267.000000,-0.001122
268.000000,0.001109
269.000000,-0.000803
270.000000,0.000153
271.000000,-0.001440
272.000000,-0.000803
273.000000,-0.000484
274.000000,-0.000803
275.000000,-0.003671
276.000000,-0.000803
277.000000,0.000153
278.000000,0.000153
279.000000,0.000472
280.000000,-0.003352
281.000000,0.001109
282.000000,-0.000484
283.000000,-0.000484
284.000000,-0.000484
285.000000,-0.000166
286.000000,-0.001440
287.000000,0.000153
288.000000,0.001746
289.000000,-0.002078
290.000000,0.000472
291.000000,0.000153
292.000000,-0.001122
293.000000,-0.000166
294.000000,0.000790
295.000000,0.001109
296.000000,0.000472
297.000000,-0.000166
298.000000,-0.000166
299.000000,-0.000166
300.000000,-0.000484
301.000000,0.000153
302.000000,-0.000166
303.000000,0.000153
304.000000,-0.000166
305.000000,-0.000166
306.000000,-0.000166
307.000000,-0.000484
308.000000,-0.000484
309.000000,-0.000166
310.000000,-0.000484
311.000000,-0.000803
312.000000,-0.000484
313.000000,-0.000803
314.000000,-0.000484
315.000000,-0.000484
316.000000,0.000153
317.000000,-0.000484
318.000000,-0.000166
319.000000,-0.001122
320.000000,0.001109
321.000000,0.001109
322.000000,-0.000166
323.000000,-0.000484
324.000000,0.000472
325.000000,-0.000484
326.000000,0.000790
327.000000,-0.000484
328.000000,0.001109
329.000000,0.000153
330.000000,-0.000484
331.000000,0.000153
332.000000,0.000153
333.000000,0.002065
334.000000,-0.000484
335.000000,-0.000166
336.000000,0.000790
337.000000,-0.001122
338.000000,0.000153
339.000000,0.000153
340.000000,0.000472
341.000000,0.000790
342.000000,0.000790
343.000000,-0.000166
344.000000,-0.000803
345.000000,0.000153
346.000000,0.000472
347.000000,-0.001122
348.000000,-0.000166
349.000000,0.000472
350.000000,0.000153
351.000000,-0.000166
352.000000,-0.000484
353.000000,0.000153
354.000000,-0.000803
355.000000,0.000153
356.000000,-0.001122
357.000000,-0.000166
358.000000,-0.000803
359.000000,-0.000484
360.000000,-0.000803
361.000000,0.000472
362.000000,0.000153
363.000000,-0.000166
364.000000,-0.000484
365.000000,-0.000803
366.000000,0.000153
367.000000,-0.000166
368.000000,-0.000166
369.000000,-0.000803
370.000000,-0.000166
371.000000,0.000790
372.000000,0.001109
373.000000,-0.002078
374.000000,0.000790
375.000000,-0.000484
376.000000,0.000153
377.000000,-0.000166
378.000000,0.000153
379.000000,-0.001122
380.000000,0.000153
381.000000,-0.000484
382.000000,0.000472
383.000000,-0.000166
384.000000,0.000472
385.000000,-0.001122
386.000000,-0.001122
387.000000,-0.000166
388.000000,0.000472
389.000000,-0.000803
390.000000,-0.001122
391.000000,-0.003990
392.000000,-0.000166
393.000000,-0.000803
394.000000,-0.003034
395.000000,0.000790
396.000000,0.000472
397.000000,-0.000166
398.000000,0.000153
399.000000,-0.000166
400.000000,-0.000166
401.000000,0.000153
402.000000,0.000472
403.000000,0.000153
404.000000,0.000472
405.000000,-0.000484
406.000000,0.000153
407.000000,0.000790
408.000000,-0.000484
409.000000,-0.000484
410.000000,-0.000803
411.000000,-0.000484
412.000000,-0.001122
413.000000,0.000153
414.000000,-0.000166
415.000000,-0.000166
416.000000,-0.000166
417.000000,0.000790
418.000000,0.000153
419.000000,-0.000166
420.000000,-0.000166
421.000000,0.000153
422.000000,0.000153
423.000000,0.000153
424.000000,-0.001122
425.000000,-0.002396
426.000000,-0.000166
427.000000,0.001746
428.000000,-0.000803
429.000000,0.000153
430.000000,-0.001440
431.000000,-0.003352
432.000000,-0.000484
433.000000,0.000153
434.000000,-0.000803
435.000000,-0.000803
436.000000,0.000472
437.000000,0.001746
438.000000,-0.000166
439.000000,-0.000484
440.000000,0.000153
441.000000,-0.000166
442.000000,0.001109
443.000000,-0.000484
444.000000,0.000472
445.000000,-0.003990
446.000000,-0.000484
447.000000,0.000472
448.000000,0.000153
449.000000,-0.001122
450.000000,0.000153
451.000000,-0.000166
452.000000,0.000472
453.000000,0.001109
454.000000,0.001746
455.000000,0.000153
456.000000,0.000153
457.000000,0.000472
458.000000,0.001428
459.000000,0.000790
460.000000,-0.000484
461.000000,-0.000166
462.000000,-0.000484
463.000000,0.000472
464.000000,0.000472
465.000000,-0.000166
466.000000,-0.000166
467.000000,-0.000484
468.000000,0.000472
469.000000,0.000153
470.000000,0.000153
471.000000,-0.000803
472.000000,0.000153
473.000000,0.000472
474.000000,-0.000166
475.000000,0.001428
476.000000,-0.003990
477.000000,-0.001440
478.000000,-0.001122
479.000000,-0.002396
480.000000,-0.000803
481.000000,-0.000803
482.000000,0.000153
483.000000,-0.000803
484.000000,-0.001122
485.000000,0.000472
486.000000,-0.000803
487.000000,-0.000484
488.000000,0.000790
489.000000,0.002065
490.000000,0.000153
491.000000,-0.001122
492.000000,-0.000484
493.000000,0.000472
494.000000,-0.000484
495.000000,0.000153
496.000000,-0.000484
497.000000,-0.000803
498.000000,-0.000803
499.000000,-0.000484
500.000000,-0.000484
501.000000,-0.001122
502.000000,0.001746
503.000000,-0.001122
504.000000,-0.000484
505.000000,0.000472
506.000000,0.000153
507.000000,-0.000484
508.000000,0.000153
509.000000,-0.000803
510.000000,0.000790
511.000000,-0.000166
512.000000,0.000153
513.000000,-0.000166
514.000000,0.000472
515.000000,-0.000166
516.000000,0.000472
517.000000,0.000153
518.000000,0.000472
519.000000,0.001428
520.000000,-0.000484
521.000000,0.000153
522.000000,0.000153
523.000000,0.000790
524.000000,0.000153
525.000000,0.000472
526.000000,0.000153
527.000000,0.000153
528.000000,-0.002715
529.000000,0.002383
530.000000,-0.000803
531.000000,-0.000166
532.000000,0.000153
533.000000,-0.000484
534.000000,-0.000803
535.000000,-0.000166
536.000000,-0.000166
537.000000,-0.006220
538.000000,-0.001440
539.000000,0.000153
540.000000,-0.000803
541.000000,-0.001122
542.000000,-0.001122
543.000000,-0.000803
544.000000,-0.002078
545.000000,-0.001122
546.000000,-0.003034
547.000000,-0.003034
548.000000,0.000153
549.000000,-0.000803
550.000000,-0.001440
551.000000,-0.001122
552.000000,-0.000166
553.000000,-0.001122
554.000000,0.000790
555.000000,-0.000484
556.000000,0.000153
557.000000,-0.000803
558.000000,-0.000166
559.000000,0.000153
560.000000,0.000153
561.000000,-0.000484
562.000000,0.000153
563.000000,0.000153
564.000000,0.000153
565.000000,0.000153
566.000000,0.000153
567.000000,0.000472
568.000000,0.000153
569.000000,-0.000166
570.000000,0.001109
571.000000,-0.000803
572.000000,0.000790
573.000000,0.000153
574.000000,0.000472
575.000000,0.000790
576.000000,0.000153
577.000000,-0.000166
578.000000,0.001109
579.000000,0.001428
580.000000,0.002702
581.000000,0.003021
582.000000,-0.000166
583.000000,-0.000484
584.000000,-0.000166
585.000000,-0.000484
586.000000,-0.001759
587.000000,-0.004627
588.000000,-0.000484
589.000000,-0.000484
590.000000,-0.000803
591.000000,-0.000803
592.000000,-0.001122
593.000000,-0.000803
594.000000,-0.001122
595.000000,-0.000803
596.000000,-0.001122
597.000000,-0.000484
598.000000,-0.000484
599.000000,-0.001122
600.000000,-0.000803
601.000000,-0.002396
602.000000,-0.002396
603.000000,0.000153
604.000000,-0.001759
605.000000,0.000472
606.000000,-0.001122
607.000000,-0.000166
608.000000,-0.000484
609.000000,-0.000166
610.000000,-0.002715
611.000000,0.000472
612.000000,0.000472
613.000000,-0.000484
614.000000,0.000153
615.000000,0.000472
616.000000,0.000472
617.000000,0.000472
618.000000,-0.000166
619.000000,0.000153
620.000000,-0.000166
621.000000,0.000153
622.000000,-0.000166
623.000000,0.000153
624.000000,0.000472
625.000000,0.000790
626.000000,-0.001122
627.000000,0.002383
628.000000,0.001109
629.000000,0.000153
630.000000,-0.000166
631.000000,0.000472
632.000000,0.002065
633.000000,0.000472
634.000000,0.001428
635.000000,-0.000166
636.000000,-0.000803
637.000000,-0.000484
638.000000,-0.000484
639.000000,0.002065
640.000000,-0.001759
641.000000,0.000153
642.000000,0.000472
643.000000,0.000790
644.000000,0.001746
645.000000,0.003658
646.000000,-0.001440
647.000000,-0.001122
648.000000,-0.000166
649.000000,-0.000166
650.000000,-0.000803
651.000000,-0.001122
652.000000,-0.002078
653.000000,-0.001122
654.000000,-0.001122
655.000000,-0.001122
656.000000,-0.001122
657.000000,-0.000166
658.000000,-0.001122
659.000000,-0.000803
660.000000,-0.000803
661.000000,-0.000484
662.000000,-0.000484
663.000000,-0.000484
664.000000,-0.001122
665.000000,-0.000166
666.000000,-0.001122
667.000000,-0.000484
668.000000,-0.000484
669.000000,-0.000803
670.000000,-0.000166
671.000000,0.000153
672.000000,-0.000166
673.000000,0.000153
674.000000,0.000472
675.000000,0.001109
676.000000,0.000790
677.000000,0.001428
678.000000,0.001746
679.000000,0.000153
680.000000,0.000153
681.000000,0.000472
682.000000,0.001428
683.000000,0.000153
684.000000,-0.000803
685.000000,-0.001122
686.000000,-0.000166
687.000000,0.000153
688.000000,-0.000803
689.000000,-0.000803
690.000000,0.000153
691.000000,0.000790
692.000000,0.000790
693.000000,0.001746
694.000000,0.000153
695.000000,0.000153
696.000000,-0.000484
697.000000,0.000153
698.000000,-0.000484
699.000000,-0.000484
700.000000,-0.000803
701.000000,-0.000484
702.000000,-0.003034
703.000000,-0.004308
704.000000,0.002702
705.000000,-0.000484
706.000000,-0.001122
707.000000,-0.000166
708.000000,-0.000484
709.000000,-0.001759
710.000000,-0.001759
711.000000,-0.000166
712.000000,-0.000484
713.000000,-0.000803
714.000000,-0.001122
715.000000,-0.001440
716.000000,-0.000484
717.000000,-0.000166
718.000000,-0.000166
719.000000,0.000153
720.000000,0.000153
721.000000,0.000153
722.000000,-0.000166
723.000000,-0.000166
724.000000,0.000153
725.000000,0.000790
726.000000,-0.000166
727.000000,0.000472
728.000000,0.000153
729.000000,-0.000484
730.000000,0.000153
731.000000,0.000153
732.000000,-0.000166
733.000000,0.000153
734.000000,0.000153
735.000000,0.000153
736.000000,0.000153
737.000000,-0.001122
738.000000,0.000790
739.000000,-0.001122
740.000000,-0.001440
741.000000,0.000790
742.000000,-0.001122
743.000000,-0.000484
744.000000,0.000153
745.000000,-0.000484
746.000000,-0.000803
747.000000,0.000153
748.000000,0.000153
749.000000,-0.000803
750.000000,0.000153
751.000000,0.000153
752.000000,0.000472
753.000000,-0.000484
754.000000,-0.001759
755.000000,-0.001759
756.000000,-0.000166
757.000000,-0.000803
758.000000,-0.001440
759.000000,0.000472
760.000000,0.000153
761.000000,0.000472
762.000000,-0.001122
763.000000,-0.000484
764.000000,-0.000803
765.000000,-0.000484
766.000000,-0.000484
767.000000,0.000153
768.000000,0.000153
769.000000,-0.000803
770.000000,-0.000484
771.000000,-0.000803
772.000000,0.000790
773.000000,-0.001759
774.000000,-0.000166
775.000000,0.000153
776.000000,-0.000166
777.000000,0.000153
778.000000,-0.000803
779.000000,0.000472
780.000000,0.000153
781.000000,0.000153
782.000000,-0.000803
783.000000,-0.000803
784.000000,-0.000484
785.000000,-0.000166
786.000000,-0.000166
787.000000,-0.001440
788.000000,-0.000803
789.000000,0.002702
790.000000,-0.000803
791.000000,0.001428
792.000000,0.000790
793.000000,-0.000484
794.000000,-0.000166
795.000000,0.000472
796.000000,-0.000803
797.000000,0.000153
798.000000,0.000472
799.000000,0.000153
800.000000,0.000153
801.000000,0.000472
802.000000,0.000153
803.000000,0.000153
804.000000,0.000790
805.000000,-0.000803
806.000000,-0.000166
807.000000,-0.000484
808.000000,-0.000166
809.000000,-0.000484
810.000000,-0.000166
811.000000,0.001428
812.000000,0.000790
813.000000,0.000153
814.000000,0.000153
815.000000,-0.000484
816.000000,0.000153
817.000000,0.000153
818.000000,0.000153
819.000000,-0.001122
820.000000,-0.000484
821.000000,-0.000484
822.000000,0.000153
823.000000,-0.000803
824.000000,-0.000803
825.000000,0.000472
826.000000,-0.000166
827.000000,-0.000166
828.000000,0.000472
829.000000,-0.001122
830.000000,-0.000484
831.000000,0.000790
832.000000,-0.000484
833.000000,-0.001122
834.000000,0.000153
835.000000,0.000153
836.000000,-0.001440
837.000000,-0.001122
838.000000,-0.001440
839.000000,-0.000484
840.000000,-0.001440
841.000000,-0.000803
842.000000,-0.001440
843.000000,-0.000803
844.000000,-0.000803
845.000000,-0.000166
846.000000,-0.001440
847.000000,-0.000166
848.000000,-0.000803
849.000000,-0.000166
850.000000,-0.001122
851.000000,-0.001122
852.000000,-0.000166
853.000000,-0.000484
854.000000,-0.000803
855.000000,0.000472
856.000000,-0.000166
857.000000,0.000153
858.000000,-0.000166
859.000000,-0.002078
860.000000,-0.000803
861.000000,0.001109
862.000000,0.001428
863.000000,-0.000166
864.000000,0.000472
865.000000,0.000153
866.000000,0.000790
867.000000,0.000472
868.000000,0.000790
869.000000,0.002065
870.000000,-0.000803
871.000000,0.000153
872.000000,0.000472
873.000000,0.001109
874.000000,0.000472
875.000000,0.000153
876.000000,0.000153
877.000000,-0.000166
878.000000,0.000472
879.000000,-0.000803
880.000000,-0.000803
881.000000,-0.000484
882.000000,-0.000484
883.000000,-0.001122
884.000000,-0.001122
885.000000,-0.001122
886.000000,-0.002078
887.000000,-0.001440
888.000000,-0.001759
889.000000,-0.001440
890.000000,-0.001759
891.000000,-0.000484
892.000000,-0.001759
893.000000,0.000153
894.000000,-0.001122
895.000000,0.000790
896.000000,-0.001122
897.000000,-0.000803
898.000000,-0.001440
899.000000,-0.001759
900.000000,-0.000803
901.000000,-0.000803
902.000000,0.000153
903.000000,0.000472
904.000000,0.000790
905.000000,-0.000484
906.000000,-0.000484
907.000000,0.000790
908.000000,-0.001122
909.000000,-0.000803
910.000000,0.000153
911.000000,-0.000166
912.000000,0.000790
913.000000,0.001109
914.000000,0.002065
915.000000,0.003021
916.000000,0.001109
917.000000,0.000153
918.000000,0.001109
919.000000,0.001109
920.000000,-0.000166
921.000000,0.001746
922.000000,0.000790
923.000000,0.000153
924.000000,0.000790
925.000000,0.000472
926.000000,-0.000166
927.000000,0.001109
928.000000,0.000153
929.000000,-0.000166
930.000000,-0.000484
931.000000,0.000472
932.000000,-0.000166
933.000000,0.000153
934.000000,-0.000484
935.000000,-0.000484
936.000000,0.000153
937.000000,0.001746
938.000000,-0.000166
939.000000,-0.000484
940.000000,-0.000484
941.000000,-0.001122
942.000000,-0.000803
943.000000,-0.001759
944.000000,-0.000484
945.000000,-0.003034
946.000000,-0.002396
947.000000,-0.002396
948.000000,-0.002396
949.000000,-0.001440
950.000000,-0.000803
951.000000,-0.000484
952.000000,0.000153
953.000000,-0.000166
954.000000,-0.000803
955.000000,-0.001440
956.000000,0.001746
957.000000,-0.000166
958.000000,-0.000803
959.000000,-0.001122
960.000000,-0.000803
961.000000,-0.000166
962.000000,0.000472
963.000000,-0.000166
964.000000,0.000472
965.000000,-0.000803
966.000000,-0.000484
967.000000,0.000472
968.000000,-0.000803
969.000000,-0.001440
970.000000,0.001109
971.000000,0.000153
972.000000,0.001109
973.000000,-0.000166
974.000000,0.000153
975.000000,-0.000803
976.000000,0.000472
977.000000,-0.000166
978.000000,-0.000166
979.000000,0.000790
980.000000,-0.000166
981.000000,0.000472
982.000000,0.000153
983.000000,0.000153
984.000000,0.000472
985.000000,0.000153
986.000000,-0.000803
987.000000,0.000790
988.000000,0.000153
989.000000,0.001428
990.000000,0.000153
991.000000,-0.000166
992.000000,0.000790
993.000000,0.000153
994.000000,0.000472
995.000000,0.000153
996.000000,-0.000166
997.000000,-0.000484
998.000000,-0.000484
999.000000,-0.000484

